Folder: basic_phys_experiment/NBCO

Note: NBCO/down.txt
294.800000000	0.396629500
294.800000000	0.396617500
294.800000000	0.396673000
294.800000000	0.396588500
294.800000000	0.396651000
294.800000000	0.396695500
294.800000000	0.396705500
294.800000000	0.396723000
294.800000000	0.396755000
294.800000000	0.396394000
294.900000000	0.396692000
294.900000000	0.396901000
294.800000000	0.395352500
294.700000000	0.396469000
294.600000000	0.396391000
294.300000000	0.396239500
294.100000000	0.396218500
293.800000000	0.396216500
293.300000000	0.396252000
293.000000000	0.396411000
292.400000000	0.396440500
292.000000000	0.396487000
291.600000000	0.396381000
291.000000000	0.396405000
290.500000000	0.396512000
290.000000000	0.396514000
289.300000000	0.396530000
288.800000000	0.396571000
288.300000000	0.396539000
287.600000000	0.396566000
287.100000000	0.396630500
286.500000000	0.396621500
285.900000000	0.396648000
285.300000000	0.396295000
284.800000000	0.396583500
284.100000000	0.396505000
283.500000000	0.396453500
283.000000000	0.396374500
282.300000000	0.396678500
281.800000000	0.396505000
281.100000000	0.396602500
280.500000000	0.396707000
280.000000000	0.396699500
279.300000000	0.396104500
278.700000000	0.396400000
278.100000000	0.396124000
277.400000000	0.396065000
276.900000000	0.396472000
276.300000000	0.396269500
275.800000000	0.396281500
275.100000000	0.396148000
274.500000000	0.396101000
273.900000000	0.396236500
273.200000000	0.396191500
272.700000000	0.396215000
272.100000000	0.395984500
271.400000000	0.395787000
270.900000000	0.395518000
270.300000000	0.394475500
269.600000000	0.395797500
269.200000000	0.395782000
268.800000000	0.395556000
268.300000000	0.395311000
267.700000000	0.395729500
267.100000000	0.394685000
266.400000000	0.395248000
265.900000000	0.395378500
265.400000000	0.395125000
264.700000000	0.394914000
264.100000000	0.394931000
263.600000000	0.394873000
262.900000000	0.394810000
262.300000000	0.394708500
261.800000000	0.394600000
261.100000000	0.394437000
260.600000000	0.394308000
260.100000000	0.394285000
259.400000000	0.394203000
258.900000000	0.394134000
258.300000000	0.394037000
257.600000000	0.393964500
257.100000000	0.393883500
256.600000000	0.393712000
255.900000000	0.393605500
255.400000000	0.393495500
254.800000000	0.393471500
254.200000000	0.393369000
253.600000000	0.393273500
253.100000000	0.393163500
252.400000000	0.393014000
251.900000000	0.392947000
251.400000000	0.392797000
250.700000000	0.392715000
250.200000000	0.392633500
249.700000000	0.392523500
249.200000000	0.392347500
248.500000000	0.392244000
248.000000000	0.392153000
247.500000000	0.392059500
246.800000000	0.391967000
246.300000000	0.391763000
245.800000000	0.391701000
245.100000000	0.391587500
244.500000000	0.391493000
244.000000000	0.391374500
243.400000000	0.391285500
242.900000000	0.391145000
242.200000000	0.391018000
241.700000000	0.390903000
241.200000000	0.390873000
240.600000000	0.390702000
240.000000000	0.390667500
239.500000000	0.390552000
238.900000000	0.390399000
238.400000000	0.390258000
237.900000

Note: NBCO/VDP.txt
294.400000000	0.001500000
294.400000000	0.001000000
294.400000000	0.000500000
294.300000000	0.000500000
294.300000000	0.000500000
294.300000000	0.000500000
294.300000000	0.000500000
294.200000000	-0.014186900
294.200000000	-0.013910600
294.200000000	-0.014071700
294.200000000	-0.013790250
294.200000000	-0.013776400
294.200000000	-0.014071800
294.200000000	-0.014179650
294.200000000	-0.013932200
294.200000000	-0.013987400
294.200000000	-0.013604500
294.200000000	-0.013734550
294.100000000	-49999994999999995700000000000000000000000000000000000000000000000000000000000000000000000000000000.000000000
294.100000000	49999994999999995700000000000000000000000000000000000000000000000000000000000000000000000000000000.000000000
294.100000000	0.000175950
294.100000000	-0.000043000
294.100000000	0.000000000
294.100000000	0.000000000
294.100000000	0.000000000
294.100000000	0.000000000
294.100000000	0.000000000
294.000000000	-0.407805500
294.000000000	-0.407831500
294.000000000	-0.407989000
294.000000000	-0.407878000
294.000000000	-0.407974000
294.000000000	-0.407887500
294.000000000	-0.407659000
294.000000000	-0.408039500
294.000000000	-0.408037500
294.000000000	-0.407854500
294.000000000	-0.203906500
294.000000000	0.000085000
294.100000000	49999994999999995700000000000000000000000000000000000000000000000000000000000000000000000000000000.000000000
294.100000000	0.000000000
294.100000000	-0.036816500
294.000000000	-0.000002000
294.000000000	-0.073866000
294.000000000	-0.070819500
294.000000000	-0.234260500
294.000000000	-0.394936500
294.000000000	-0.394825000
294.000000000	-0.067905000
294.100000000	0.005416500
294.100000000	0.388784500
294.100000000	0.388887500
294.100000000	0.388920000
294.100000000	0.389145000
294.100000000	0.389201000
294.100000000	0.389148000
294.100000000	0.389079500
294.100000000	0.389205000
294.100000000	0.389379500
294.100000000	0.389290500
294.100000000	0.389345500
294.100000000	0.389238000
294.100000000	0.389082000
294.100000000	0.389352000
294.100000000	0.394092000
294.100000000	0.393959000
294.100000000	0.394039000
294.100000000	0.394458000
294.100000000	0.394457500
294.100000000	0.394499500
294.200000000	0.394499000
294.200000000	0.394522500
294.200000000	0.394543000
294.200000000	0.394559500
294.200000000	0.394593000
294.200000000	0.394471000
294.200000000	0.394524500
294.200000000	0.394590000
294.200000000	0.394608000
294.200000000	0.394623000
294.200000000	0.394645500
294.200000000	0.394544000
294.200000000	0.394540500
294.300000000	0.394548500
294.300000000	0.394572500
294.300000000	0.394590500
294.300000000	0.394598000
294.300000000	0.394579500
294.300000000	0.394606000
294.300000000	0.394633500
294.300000000	0.394650500
294.300000000	0.394660000
294.300000000	0.394675500
294.400000000	0.394702000
294.400000000	0.394606500
294.400000000	0.394621500
294.400000000	0.394700500
294.400000000	0.394717500
294.400000000	0.394725000
294.500000000	0.394732000
294.500000000	0.394741500
294.600000000	0.394912000
294.600000000	0.394696000

File: NBCO_XRD.txt
     Angle,       PSD,
   9.99821,        29,
   10.2714,        40,
   10.5446,        24,
   10.8178,        31,
    11.091,        43,
   11.3642,        24,
   11.6374,        23,
   11.9106,        38,
   12.1838,        31,
    12.457,        35,
   12.7302,        32,
   13.0034,        36,
   13.2766,        38,
   13.5498,        23,
    13.823,        36,
   14.0962,        44,
   14.3694,        23,
   14.6426,        35,
   14.9158,        43,
    15.189,        34,
   15.4622,        24,
   15.7354,        32,
   16.0086,        20,
   16.2819,        37,
   16.5551,        22,
   16.8283,        42,
   17.1015,        21,
   17.3747,        28,
   17.6479,        33,
   17.9211,        27,
   18.1943,        34,
   18.4675,        37,
   18.7407,        39,
   19.0139,        25,
   19.2871,        31,
   19.5603,        39,
   19.8335,        36,
   20.1067,        28,
   20.3799,        30,
   20.6531,        40,
   20.9263,        32,
   21.1995,        19,
   21.4727,        32,
   21.7459,        33,
   22.0191,        23,
   22.2923,        26,
   22.5655,       102,
   22.8387,        85,
   23.1119,        29,
   23.3851,        35,
   23.6583,        29,
   23.9315,        41,
   24.2047,        23,
   24.4779,        29,
   24.7511,        29,
   25.0243,        24,
   25.2975,        38,
   25.5707,        27,
   25.8439,        33,
   26.1171,        32,
   26.3903,        26,
   26.6635,        41,
   26.9367,        27,
   27.2099,        45,
   27.4831,        43,
   27.7563,        25,
   28.0295,        30,
   28.3027,        44,
   28.5759,        39,
   28.8491,        37,
   29.1223,        28,
   29.3955,        33,
   29.6687,        27,
   29.9419,        37,
   30.2151,        35,
   30.4883,        28,
   30.7615,        33,
   31.0347,        35,
   31.3079,        38,
   31.5811,        61,
   31.8543,        65,
   32.1275,       232,
   32.4007,       997,
   32.6739,        56,
   32.9471,        31,
   33.2204,        44,
   33.4936,        26,
   33.7668,        33,
     34.04,        21,
   34.3132,        37,
   34.5864,        34,
   34.8596,        27,
   35.1328,        41,
    35.406,        34,
   35.6792,        29,
   35.9524,        35,
   36.2256,        31,
   36.4988,        33,
    36.772,        31,
   37.0452,        43,
   37.3184,        38,
   37.5916,        37,
   37.8648,        38,
    38.138,       147,
   38.4112,        47,
   38.6844,        48,
   38.9576,        46,
   39.2308,        31,
    39.504,        37,
   39.7772,       155,
   40.0504,        59,
   40.3236,        34,
   40.5968,        40,
     40.87,        28,
   41.1432,        32,
   41.4164,        31,
   41.6896,        31,
   41.9628,        43,
    42.236,        27,
   42.5092,        34,
   42.7824,        27,
   43.0556,        34,
   43.3288,        24,
    43.602,        30,
   43.8752,        39,
   44.1484,        26,
   44.4216,        34,
   44.6948,        29,
    44.968,        35,
   45.2412,        41,
   45.5144,        32,
   45.7876,        40,
   46.0608,        84,
    46.334,        83,
   46.6072,       143,
   46.8804,        46,
   47.1536,        39,
   47.4268,        25,
      47.7,        22,
   47.9732,        29,
   48.2464,        28,
   48.5196,        33,
   48.7928,        27,
    49.066,        34,
   49.3392,        30,
   49.6124,        31,
   49.8856,        27,
   50.1589,        30,
   50.4321,        24,
   50.7053,        34,
   50.9785,        30,
   51.2517,        30,
   51.5249,        35,
   51.7981,        36,
   52.0713,        27,
   52.3445,        60,
   52.6177,        29,
   52.8909,        19,
   53.1641,        28,
   53.4373,        34,
   53.7105,        25,
   53.9837,        15,
   54.2569,        46,
   54.5301,        30,
   54.8033,        30,
   55.0765,        18,
   55.3497,        36,
   55.6229,        26,
   55.8961,        28,
   56.1693,        32,
   56.4425,        28,
   56.7157,        25,
   56.9889,        41,
   57.2621,        59,
   57.5353,       105,
   57.8085,       181,
   58.0817,        45,
   58.3549,        24,
   58.6281,        33,
   58.9013,        28,
   59.1745,        32,
   59.4477,        33,
   59.7209,        35,
   59.9941,        36,
   60.2673,        22,
   60.5405,        34,
   60.8137,        23,
   61.0869,        30,
   61.3601,        29,
   61.6333,        74,
   61.9065,        35,
   62.1797,        26,
   62.4529,        22,
   62.7261,        25,
   62.9993,        23,
   63.2725,        27,
   63.5457,        29,
   63.8189,        19,
   64.0921,        20,
   64.3653,        38,
   64.6385,        29,
   64.9117,        30,
   65.1849,        23,
   65.4581,        25,
   65.7313,        22,
   66.0045,        20,
   66.2777,        31,
   66.5509,        27,
   66.8241,        23,
   67.0974,        24,
   67.3706,        44,
   67.6438,        60,
    67.917,        44,
   68.1902,        30,
   68.4634,        19,
   68.7366,        16,
   69.0098,        20,
    69.283,        26,
   69.5562,        28,
   69.8294,        23,
   70.1026,        25,
   70.3758,        23,
    70.649,        23,
   70.9222,        19,
   71.1954,        21,
   71.4686,        22,
   71.7418,        19,
    72.015,        24,
   72.2882,        35,
   72.5614,        31,
   72.8346,        24,
   73.1078,        18,
    73.381,        13,
   73.6542,        19,
   73.9274,        15,
   74.2006,        28,
   74.4738,        20,
    74.747,        19,
   75.0202,        31,
   75.2934,        19,
   75.5666,        22,
   75.8398,        22,
    76.113,        24,
   76.3862,        31,
   76.6594,        19,
   76.9326,        32,
   77.2058,        47,
    77.479,        29,
   77.7522,        21,
   78.0254,        20,
   78.2986,        21,
   78.5718,        23,
    78.845,        17,
   79.1182,        19,
   79.3914,        15,
   79.6646,        25,
   79.9378,        14,
    80.211,        18,
   80.4842,        19,
   80.7574,        15,
   81.0306,        19,
   81.3038,        17,
    81.577,        23,
   81.8502,        16,
   82.1234,        19,
   82.3966,         7,
   82.6698,        21,
    82.943,        16,
   83.2162,        14,
   83.4894,        16,
   83.7626,        11,
   84.0359,        15,
   84.3091,        12,
   84.5823,        11,
   84.8555,        19,
   85.1287,        15,
   85.4019,        18,
   85.6751,        14,
   85.9483,        25,
   86.2215,        19,
   86.4947,        18,
   86.7679,        16,
   87.0411,        14,
   87.3143,         8,
   87.5875,         6,
   87.8607,        11,
   88.1339,         8,
   88.4071,        15,
   88.6803,         5,
   88.9535,        18,
   89.2267,         9,
   89.4999,         6,
   89.7731,        14,
    90.026,        18,